Folder: Code/December Final

Note: README.md
# Code
Fitting inhomogenous Code and results

File: exampleData.mpt
EC-Lab ASCII FILE
Nb header lines : 63

Potentio Electrochemical Impedance Spectroscopy

Run on channel : 2 (SN 52159)
User :
CE vs. WE compliance from -10 V to 10 V
Electrode connection : standard
Potential control : Ewe
Ewe ctrl range : min = -10.00 V, max = 10.00 V
Safety Limits :
	Do not start on E overload
Acquisition started on : 10/12/2023 10:00:32.686
Loaded Setting File :  NONE
Saved on :
	File : AKS-31_Uncompressed__T-Cell_C6_PVDF_94_6_10mM_TBACLO4_EC_EMC_3_7_317_200kHz-10mHz_10mV_Cell2_C01_C02.mpr
	Directory : D:\Abhishek\T-Cell_AKS31_2023_10_12\
	Host : 192.168.0.10
Device : VSP-3e (SN .003361)
Address : 192.168.0.1
EC-Lab for windows v11.50 (software)
Internet server v11.50 (firmware)
Command interpretor v11.50 (firmware)
Electrode material :
Initial state :
Electrolyte :
Comments :
Electrode surface area : 0.001 cm²
Characteristic mass : 0.001 g
Equivalent Weight : 0.000 g/eq.
Density : 0.000 g/cm3
Volume (V) : 0.001 cm³
Cycle Definition : Charge/Discharge alternance
Mode                Single sine
E (V)               0.0000
vs.                 Eoc
tE (h:m:s)          0:00:0.0000
record              0
dI                  0.000
unit dI             mA
dt (s)              0.000
fi                  200.000
unit fi             kHz
ff                  10.000
unit ff             mHz
Nd                  10
Points              per decade
spacing             Logarithmic
Va (mV)             10.0
pw                  3.00
Na                  5
corr                0
E range min (V)     -10.000
E range max (V)     10.000
I Range             Auto
Bandwidth           5
nc cycles           0
goto Ns'            0
nr cycles           0
inc. cycle          0

freq/Hz	Re(Z)/Ohm	-Im(Z)/Ohm	|Z|/Ohm	Phase(Z)/deg	time/s	<Ewe>/V	<I>/mA	Cs/µF	Cp/µF	cycle number	I Range	|Ewe|/V	|I|/A	Ns	(Q-Qo)/mA.h	Re(Y)/Ohm-1	Im(Y)/Ohm-1	|Y|/Ohm-1	Phase(Y)/deg	Re(C)/nF	Im(C)/nF	|C|/nF	Phase(C)/deg	Re(M)	Im(M)	|M|	Phase(M)/deg	Re(Permittivity)	Im(Permittivity)	|Permittivity|	Phase(Permittivity)/deg	Re(Resistivity)/Ohm.cm	Im(Resistivity)/Ohm.cm	|Resistivity|/Ohm.cm	Phase(Resistivity)/deg	Re(Conductivity)/mS/cm	Im(Conductivity)/mS/cm	|Conductivity|/mS/cm	Phase(Conductivity)/deg	Tan(Delta)	Loss Angle(Delta)/deg	dq/mA.h
199998	52.5328	1.73657	52.5615	-1.89333	3.00848	0.00401461	0.00089341	0.458248	0.00050021	1	11	0.00988851	0.000188132	0	2.18986e-07	0.0190149	0.000628576	0.0190253	1.89333	0.500209	15.1318	15.14	-88.1067	0.0000000E+000	0.0000000E+000	0.0000000E+000	88.1067	0.0000000E+000	0.0000000E+000	0.0000000E+000	-88.1067	0.0000000E+000	0.0000000E+000	0.0000000E+000	-1.89333	0.0000000E+000	0.0000000E+000	0.0000000E+000	1.89333	30.2508	88.1067	2.18986e-07
79609.6	54.4922	4.54318	54.6813	-4.7659	7.54249	0.00404358	0.000928996	0.440043	0.00303765	1	11	0.0102868	0.000188123	0	1.31067e-06	0.0182246	0.00151944	0.0182878	4.7659	3.03765	36.4344	36.5609	-85.2341	0.0000000E+000	0.0000000E+000	0.0000000E+000	85.2341	0.0000000E+000	0.0000000E+000	0.0000000E+000	-85.2341	0.0000000E+000	0.0000000E+000	0.0000000E+000	-4.7659	0.0000000E+000	0.0000000E+000	0.0000000E+000	4.7659	11.9943	85.2341	8.8205e-08
31686.1	58.1453	6.83628	58.5458	-6.70562	12.0755	0.00404021	0.00100501	0.734736	0.010018	1	11	0.0102304	0.000174742	0	2.91782e-06	0.0169638	0.00199447	0.0170806	6.70562	10.018	85.2068	85.7937	-83.2944	0.0000000E+000	0.0000000E+000	0.0000000E+000	83.2944	0.0000000E+000	0.0000000E+000	0.0000000E+000	-83.2944	0.0000000E+000	0.0000000E+000	0.0000000E+000	-6.70562	0.0000000E+000	0.0000000E+000	0.0000000E+000	6.70562	8.5054	83.2944	4.06483e-07
12618.8	63.4441	7.77047	63.9182	-6.98266	16.4715	0.00402585	0.000830807	1.62314	0.0239884	1	11	0.0107552	0.000168265	0	4.74969e-06	0.015529	0.00190195	0.015645	6.98266	23.9884	195.86	197.323	-83.0173	0.0000000E+000	0.0000000E+000	0.0000000E+000	83.0173	0.0000000E+000	0.0000000E+000	0.0000000E+000	-83.0173	0.0000000E+000	0.0000000E+000	0.0000000E+000	-6.98266	0.0000000E+000	0.0000000E+000	0.0000000E+000	6.98266	8.16477	83.0173	2.13801e-07
5021.61	68.1693	6.99587	68.5273	-5.85946	21.8737	0.00409239	0.00176108	4.53039	0.0472163	1	11	0.0106096	0.000154823	0	6.95777e-06	0.0145165	0.00148975	0.0145927	5.85946	47.2163	460.086	462.502	-84.1405	0.0000000E+000	0.0000000E+000	0.0000000E+000	84.1405	0.0000000E+000	0.0000000E+000	0.0000000E+000	-84.1405	0.0000000E+000	0.0000000E+000	0.0000000E+000	-5.85946	0.0000000E+000	0.0000000E+000	0.0000000E+000	5.85946	9.74422	84.1405	9.50746e-07
1998.08	71.5565	6.5315	71.854	-5.21537	28.683	0.00409393	0.00169084	12.1953	0.100767	1	11	0.0107135	0.000149101	0	1.0376e-05	0.0138595	0.00126506	0.0139171	5.21537	100.767	1103.96	1108.55	-84.7846	0.0000000E+000	0.0000000E+000	0.0000000E+000	84.7846	0.0000000E+000	0.0000000E+000	0.0000000E+000	-84.7846	0.0000000E+000	0.0000000E+000	0.0000000E+000	-5.21537	0.0000000E+000	0.0000000E+000	0.0000000E+000	5.21537	10.9556	84.7846	8.79158e-07
795.254	74.6852	7.40574	75.0515	-5.6629	35.4837	0.00408349	0.00174543	27.0237	0.263126	1	11	0.0107121	0.00014273	0	1.35956e-05	0.0132592	0.00131477	0.0133242	5.6629	263.126	2653.57	2666.58	-84.3371	0.0000000E+000	0.0000000E+000	0.0000000E+000	84.3371	0.0000000E+000	0.0000000E+000	0.0000000E+000	-84.3371	0.0000000E+000	0.0000000E+000	0.0000000E+000	-5.6629	0.0000000E+000	0.0000000E+000	0.0000000E+000	5.6629	10.0848	84.3371	9.40065e-07
316.723	78.6442	9.98973	79.2762	-7.23919	42.2757	0.00409272	0.0017322	50.3022	0.798746	1	11	0.0107049	0.000135033	0	1.68423e-05	0.0125136	0.00158953	0.0126141	7.23919	798.746	6288.14	6338.67	-82.7608	0.0000000E+000	0.0000000E+000	0.0000000E+000	82.7608	0.0000000E+000	0.0000000E+000	0.0000000E+000	-82.7608	0.0000000E+000	0.0000000E+000	0.0000000E+000	-7.23919	0.0000000E+000	0.0000000E+000	0.0000000E+000	7.23919	7.87251	82.7608	7.56017e-07
126.008	84.2975	14.6227	85.5563	-9.84093	49.0702	0.00410292	0.00182237	86.3761	2.52316	1	11	0.0106976	0.000125035	0	2.00347e-05	0.0115162	0.00199767	0.0116882	9.84093	2523.16	14545.6	14762.8	-80.1591	0.0000000E+000	0.0000000E+000	0.0000000E+000	80.1591	0.0000000E+000	0.0000000E+000	0.0000000E+000	-80.1591	0.0000000E+000	0.0000000E+000	0.0000000E+000	-9.84093	0.0000000E+000	0.0000000E+000	0.0000000E+000	9.84093	5.76483	80.1591	8.44523e-07
50.2089	92.8651	22.283	95.5011	-13.493	55.9209	0.00409237	0.0016886	142.255	7.74455	1	11	0.0107013	0.000112054	0	2.32535e-05	0.0101821	0.00244319	0.0104711	13.493	7744.55	32275.7	33191.8	-76.507	0.0000000E+000	0.0000000E+000	0.0000000E+000	76.507	0.0000000E+000	0.0000000E+000	0.0000000E+000	-76.507	0.0000000E+000	0.0000000E+000	0.0000000E+000	-13.493	0.0000000E+000	0.0000000E+000	0.0000000E+000	13.493	4.16753	76.507	8.3684e-07
19.9808	105.917	34.33	111.341	-17.9587	62.641	0.0040961	0.00171152	232.024	22.0581	1	11	0.0106975	9.60785e-05	0	2.59913e-05	0.00854381	0.00276924	0.00898139	17.9587	22058.1	68054.8	71540.3	-72.0413	0.0000000E+000	0.0000000E+000	0.0000000E+000	72.0413	0.0000000E+000	0.0000000E+000	0.0000000E+000	-72.0413	0.0000000E+000	0.0000000E+000	0.0000000E+000	-17.9587	0.0000000E+000	0.0000000E+000	0.0000000E+000	17.9587	3.08526	72.0413	7.18455e-07
7.9557	126.478	53.0833	137.166	-22.768	70.3182	0.00408404	0.00011498	376.863	56.4425	1	12	0.0107014	7.80182e-05	0	2.82644e-05	0.00672236	0.0028214	0.00729043	22.768	56442.5	134482	145846	-67.232	0.0000000E+000	0.0000000E+000	0.0000000E+000	67.232	0.0000000E+000	0.0000000E+000	0.0000000E+000	-67.232	0.0000000E+000	0.0000000E+000	0.0000000E+000	-22.768	0.0000000E+000	0.0000000E+000	0.0000000E+000	22.768	2.38263	67.232	9.7812e-08
3.16552	156.037	80.0564	175.375	-27.1606	78.1157	0.00408345	2.59446e-05	628.028	130.868	1	12	0.0106987	6.10048e-05	0	2.8318e-05	0.00507329	0.00260291	0.00570205	27.1606	130868	255073	286686	-62.8394	0.0000000E+000	0.0000000E+000	0.0000000E+000	62.8394	0.0000000E+000	0.0000000E+000	0.0000000E+000	-62.8394	0.0000000E+000	0.0000000E+000	0.0000000E+000	-27.1606	0.0000000E+000	0.0000000E+000	0.0000000E+000	27.1606	1.94909	62.8394	1.01242e-06
1.25967	188.204	130.79	229.187	-34.7968	97.0579	0.00409922	0.000127922	966.023	314.597	1	12	0.0106994	4.66841e-05	0	2.72279e-05	0.00358301	0.00248996	0.00436324	34.7968	314597	452699	551278	-55.2032	0.0000000E+000	0.0000000E+000	0.0000000E+000	55.2032	0.0000000E+000	0.0000000E+000	0.0000000E+000	-55.2032	0.0000000E+000	0.0000000E+000	0.0000000E+000	-34.7968	0.0000000E+000	0.0000000E+000	0.0000000E+000	34.7968	1.43898	55.2032	-1.23756e-07
0.501187	232.934	251.264	342.625	-47.1679	145.156	0.00410236	2.64299e-05	1263.83	679.692	1	13	0.0107006	3.12312e-05	0	3.03557e-05	0.00198424	0.00214038	0.00291864	47.1679	679692	630109	926832	-42.8321	0.0000000E+000	0.0000000E+000	0.0000000E+000	42.8321	0.0000000E+000	0.0000000E+000	0.0000000E+000	-42.8321	0.0000000E+000	0.0000000E+000	0.0000000E+000	-47.1679	0.0000000E+000	0.0000000E+000	0.0000000E+000	47.1679	0.927051	42.8321	8.93667e-07
0.199808	319.506	513.226	604.553	-58.0959	262.789	0.00410132	1.90358e-05	1552.02	1118.53	1	13	0.0106975	1.76948e-05	0	3.25373e-05	0.000874197	0.00140423	0.00165411	58.0959	1.11853e+06	696332	1.31757e+06	-31.9041	0.0000000E+000	0.0000000E+000	0.0000000E+000	31.9041	0.0000000E+000	0.0000000E+000	0.0000000E+000	-31.9041	0.0000000E+000	0.0000000E+000	0.0000000E+000	-58.0959	0.0000000E+000	0.0000000E+000	0.0000000E+000	58.0959	0.622544	31.9041	3.80226e-07
0.0794212	486.652	1067.49	1173.19	-65.4926	557.916	0.00410038	1.42097e-05	1877.23	1554.22	1	13	0.0106967	9.11767e-06	0	3.38713e-05	0.000353576	0.000775585	0.000852378	65.4926	1.55422e+06	708543	1.70811e+06	-24.5074	0.0000000E+000	0.0000000E+000	0.0000000E+000	24.5074	0.0000000E+000	0.0000000E+000	0.0000000E+000	-24.5074	0.0000000E+000	0.0000000E+000	0.0000000E+000	-65.4926	0.0000000E+000	0.0000000E+000	0.0000000E+000	65.4926	0.455883	24.5074	3.87241e-07
0.0315922	806.548	2267.31	2406.49	-70.4181	1330.95	0.00410569	3.38199e-06	2221.92	1972.34	1	14	0.0106969	4.44503e-06	0	3.60946e-05	0.000139271	0.000391508	0.000415542	70.4181	1.97234e+06	701618	2.09341e+06	-19.5819	0.0000000E+000	0.0000000E+000	0.0000000E+000	19.5819	0.0000000E+000	0.0000000E+000	0.0000000E+000	-19.5819	0.0000000E+000	0.0000000E+000	0.0000000E+000	-70.4181	0.0000000E+000	0.0000000E+000	0.0000000E+000	70.4181	0.355729	19.5819	4.15058e-07
0.0125768	1479.44	4920.92	5138.5	-73.267	3192.21	0.00410296	2.75869e-06	2571.6	2358.43	1	14	0.0106983	2.08198e-06	0	3.64375e-05	5.60303e-05	0.000186369	0.000194609	73.267	2.35843e+06	709044	2.46271e+06	-16.733	0.0000000E+000	0.0000000E+000	0.0000000E+000	16.733	0.0000000E+000	0.0000000E+000	0.0000000E+000	-16.733	0.0000000E+000	0.0000000E+000	0.0000000E+000	-73.267	0.0000000E+000	0.0000000E+000	0.0000000E+000	73.267	0.300642	16.733	1.97442e-07
0.0100092	1758.16	5979.11	6232.24	-73.614	3992.11	0.00411077	2.25084e-06	2659.41	2447.77	1	14	0.0106974	1.71647e-06	0	3.653e-05	4.52656e-05	0.000153939	0.000160456	73.614	2.44777e+06	719765	2.5514e+06	-16.386	0.0000000E+000	0.0000000E+000	0.0000000E+000	16.386	0.0000000E+000	0.0000000E+000	0.0000000E+000	-16.386	0.0000000E+000	0.0000000E+000	0.0000000E+000	-73.614	0.0000000E+000	0.0000000E+000	0.0000000E+000	73.614	0.29405	16.386	9.24538e-08